Folder: Int/data/XRD/2021_03_30

Note: data/XRD/README.md
X-Ray Diffraction
=================

Machine: Thermo Scientific ARL Equinox 100 X-Ray Diffractometer
Incident angle: 5 degree

The file `2021_03_30/ref.txt` is a nicely formatted combination of 
     - 2021_03_30/fe-alfa.txt
     - 2021_03_30/zro2.txt

File: 211_6554_10x3F_v16T80_T500v2.txt
Index	X	Acquisition
0	-2.81233	3
14	-2.40884	28
28	-2.00536	37
42	-1.60188	30
56	-1.1984	42
70	-0.794913	27
84	-0.39143	35
98	0.0120529	37
112	0.415537	30
126	0.819029	25
140	1.22254	29
154	1.62607	44
168	2.02963	49
182	2.43324	29
196	2.83689	60
210	3.2406	53
224	3.64437	35
238	4.04822	51
252	4.45214	49
266	4.85615	48
280	5.26026	50
294	5.66447	59
308	6.06879	51
322	6.47323	76
336	6.8778	74
350	7.2825	100
364	7.68735	593
378	8.09234	5388
392	8.4975	5950
406	8.90282	5886
420	9.30832	5584
434	9.714	5542
448	10.1199	5490
462	10.5259	5535
476	10.9322	5381
490	11.3387	5588
504	11.7454	5632
518	12.1524	5621
532	12.5596	5747
546	12.967	5675
560	13.3747	5558
574	13.7826	5769
588	14.1908	5769
602	14.5993	5832
616	15.0081	5914
630	15.4172	5794
644	15.8266	5729
658	16.2363	5867
672	16.6463	5896
686	17.0566	5950
700	17.4673	5848
714	17.8783	5958
728	18.2896	5993
742	18.7013	5902
756	19.1134	5947
770	19.5259	6007
784	19.9387	5996
798	20.3519	5864
812	20.7656	5918
826	21.1795	5931
840	21.5938	5943
854	22.0083	5809
868	22.423	6060
882	22.8377	5967
896	23.2525	6154
910	23.6673	5806
924	24.0819	6045
938	24.4965	5860
952	24.9107	5989
966	25.3247	6110
980	25.7384	6230
994	26.1516	6078
1008	26.5644	6089
1022	26.9766	6188
1036	27.3882	6023
1050	27.7991	6194
1064	28.2092	6147
1078	28.6186	6058
1092	29.0271	6328
1106	29.4347	6379
1120	29.8414	6662
1134	30.2476	6388
1148	30.6533	6365
1162	31.0588	6206
1176	31.4642	6135
1190	31.8698	6121
1204	32.2757	6115
1218	32.6822	6254
1232	33.0894	6063
1246	33.4975	6207
1260	33.9068	6361
1274	34.3172	6142
1288	34.7284	6392
1302	35.1402	6446
1316	35.5521	6418
1330	35.9638	6297
1344	36.3752	6130
1358	36.7862	6200
1372	37.1972	6384
1386	37.6082	6478
1400	38.0193	6376
1414	38.4307	6315
1428	38.8425	6116
1442	39.2549	6394
1456	39.6681	6321
1470	40.0821	6379
1484	40.4968	6156
1498	40.9119	6354
1512	41.3268	6256
1526	41.7413	6193
1540	42.1549	6127
1554	42.5673	6201
1568	42.978	6237
1582	43.3866	6589
1596	43.7929	7476
1610	44.1974	8213
1624	44.6012	7883
1638	45.0053	6644
1652	45.4109	6091
1666	45.8189	6358
1680	46.2304	6272
1694	46.6465	6347
1708	47.0682	6380
1722	47.4945	6563
1736	47.9223	6365
1750	48.3479	6354
1764	48.768	6463
1778	49.1821	6460
1792	49.5921	6479
1806	50.0001	6610
1820	50.408	6592
1834	50.8164	6554
1848	51.2251	6443
1862	51.6337	6277
1876	52.042	6629
1890	52.4496	6455
1904	52.8563	6277
1918	53.2618	6439
1932	53.6662	6515
1946	54.07	6235
1960	54.4743	6305
1974	54.88	6512
1988	55.2879	6391
2002	55.6989	6352
2016	56.1139	6287
2030	56.5333	6432
2044	56.9549	6456
2058	57.3753	6313
2072	57.7911	6251
2086	58.2014	6528
2100	58.6088	6506
2114	59.0155	6416
2128	59.4239	6536
2142	59.8341	6673
2156	60.2457	6465
2170	60.6585	6358
2184	61.0714	6408
2198	61.4825	6349
2212	61.8899	6467
2226	62.2927	6471
2240	62.6922	6570
2254	63.0898	6337
2268	63.487	6457
2282	63.8854	6402
2296	64.2865	6362
2310	64.6919	6478
2324	65.1019	6274
2338	65.5159	6268
2352	65.9332	6198
2366	66.3529	6150
2380	66.7742	6337
2394	67.1964	6286
2408	67.6187	6473
2422	68.0402	6271
2436	68.4603	6323
2450	68.878	6079
2464	69.2927	6221
2478	69.7036	6067
2492	70.1101	6262
2506	70.5146	6154
2520	70.9201	6165
2534	71.3297	6435
2548	71.7435	6264
2562	72.1597	6158
2576	72.5766	6415
2590	72.9931	6263
2604	73.4089	6296
2618	73.8235	6185
2632	74.2366	6255
2646	74.6477	6235
2660	75.0565	6310
2674	75.4634	6190
2688	75.8698	6224
2702	76.277	6018
2716	76.6864	6052
2730	77.0992	6218
2744	77.5167	6300
2758	77.9383	6064
2772	78.3603	5966
2786	78.7794	6199
2800	79.194	5945
2814	79.6049	5937
2828	80.0129	5969
2842	80.419	6092
2856	80.824	6392
2870	81.2288	6778
2884	81.634	6454
2898	82.0397	6348
2912	82.4461	6155
2926	82.8533	6042
2940	83.2615	6006
2954	83.6708	5834
2968	84.0814	6006
2982	84.4934	5994
2996	84.9069	5979
3010	85.3216	5912
3024	85.7368	6154
3038	86.1515	5854
3052	86.5649	6004
3066	86.9764	5981
3080	87.385	6019
3094	87.7916	5900
3108	88.1977	6067
3122	88.6049	5807
3136	89.0147	5751
3150	89.4289	5737
3164	89.8485	5822
3178	90.2709	5713
3192	90.6912	5914
3206	91.1058	5835
3220	91.5173	5854
3234	91.9307	6192
3248	92.3499	5780
3262	92.7737	5838
3276	93.1989	5805
3290	93.6227	5653
3304	94.0421	5641
3318	94.4542	5811
3332	94.856	5855
3346	95.2446	5678
3360	95.6171	5750
3374	95.9734	5619
3388	96.323	5722
3402	96.677	5878
3416	97.0465	5789
3430	97.4428	5812
3444	97.877	5928
3458	98.3578	5903
3472	98.8645	5756
3486	99.3583	5640
3500	99.8144	5807
3514	100.239	5900
3528	100.64	5580
3542	101.029	5611
3556	101.414	5533
3570	101.805	5664
3584	102.207	5568
3598	102.617	5656
3612	103.027	5770
3626	103.421	5641
3640	103.814	5532
3654	104.208	5494
3668	104.602	5464
3682	104.996	5544
3696	105.389	5486
3710	105.783	5625
3724	106.177	5730
3738	106.57	5725
3752	106.964	5754
3766	107.358	5610
3780	107.752	5664
3794	108.145	5607
3808	108.539	5442
3822	108.933	5559
3836	109.327	5352
3850	109.72	5426
3864	110.114	5591
3878	110.508	5272
3892	110.901	5394
3906	111.295	5340
3920	111.689	5354
3934	112.083	5441
3948	112.476	5551
3962	112.87	5652
3976	113.264	5685
3990	113.657	5583
4004	114.051	6027
4018	114.445	7175
4032	114.839	10506
4046	115.232	720
4060	115.626	56
4074	116.02	53
4088	116.414	41
4095	116.61	33

File: a-Fe_ZrO2.csv
Peak list for sample 207_6113_10x2F_v18T40_T500v2
2theta;Peak height;FWHM;Zr O2;alfa-Fe
30.42;;;1000.0;
35.26;;;202.2;
44.68;;;;1000.0
50.73;;;553.3;
60.31;;;355.7;
63.29;;;51.8;
65.04;;;;129.7
74.58;;;68.1;
82.36;;;;219.8
82.63;;;125.7;
85.27;;;66.4;
95.80;;;133.6;
98.97;;;;66.8
103.81;;;105.3;
117.91;;;55.6;
127.28;;;160.6;
130.66;;;65.2;
146.63;;;163.6;

File: steel_csv.dat
 0.1033       39.34
 0.5115       40.98
 0.9198       48.58
 1.3280       35.51
 1.7362       44.12
 2.1445       49.82
 2.5527       53.90
 2.9610       51.53
 3.3692       46.44
 3.7774       54.36
 4.1857       41.06
 4.5939       51.11
 5.0022       59.82
 5.4104       50.81
 5.8186       57.46
 6.2269       76.77
 6.6351       69.15
 7.0434       95.14
 7.4516      151.56
 7.8598     2775.26
 8.2681     6448.40
 8.6763     6466.04
 9.0846     6236.37
 9.4928     5962.12
 9.9010     5946.88
10.3093     5885.33
10.7175     5964.02
11.1258     5998.29
11.5340     5912.19
11.9422     6156.68
12.3505     6231.52
12.7587     6160.43
13.1670     6248.14
13.5752     6254.09
13.9834     6168.15
14.3917     6343.90
14.7999     6244.39
15.2082     6113.90
15.6164     6241.15
16.0246     6278.71
16.4329     6274.28
16.8411     6183.18
17.2494     6245.04
17.6576     6281.00
18.0658     6286.32
18.4741     6372.56
18.8823     6365.33
19.2906     6307.88
19.6988     6282.73
20.1070     6229.33
20.5153     6304.55
20.9235     6420.30
21.3318     6332.89
21.7400     6355.35
22.1482     6440.47
22.5565     6373.47
22.9647     6350.07
23.3730     6536.73
23.7812     6493.58
24.1894     6403.73
24.5977     6505.63
25.0059     6427.17
25.4142     6463.15
25.8224     6446.59
26.2306     6612.71
26.6389     6528.38
27.0471     6507.83
27.4554     6480.53
27.8636     6546.66
28.2718     6584.01
28.6801     6455.58
29.0883     6445.93
29.4966     6422.92
29.9048     6519.75
30.3130     6490.84
30.7213     6453.22
31.1295     6537.30
31.5378     6525.43
31.9460     6556.01
32.3542     6481.84
32.7625     6504.25
33.1707     6625.20
33.5790     6341.93
33.9872     6514.42
34.3954     6548.72
34.8037     6630.64
35.2119     6639.71
35.6202     6465.38
36.0284     6774.43
36.4366     6468.96
36.8449     6585.64
37.2531     6666.64
37.6614     6640.47
38.0696     6717.39
38.4778     6687.17
38.8861     6568.94
39.2943     6684.17
39.7026     6641.39
40.1108     6633.28
40.5190     6711.53
40.9273     6631.99
41.3355     6653.45
41.7438     6618.28
42.1520     6540.99
42.5602     6618.22
42.9685     6756.59
43.3767     7643.14
43.7850     8565.75
44.1932     8356.00
44.6014     7716.27
45.0097     6747.91
45.4179     6609.80
45.8262     6746.11
46.2344     6768.99
46.6426     6822.93
47.0509     6759.60
47.4591     6847.11
47.8674     6800.55
48.2756     6776.88
48.6838     6759.77
49.0921     6770.89
49.5003     6720.15
49.9086     6686.34
50.3168     6820.13
50.7250     6834.42
51.1333     6809.89
51.5415     6811.13
51.9498     6716.75
52.3580     6797.73
52.7662     6888.22
53.1745     6582.34
53.5827     6829.79
53.9910     6765.17
54.3992     6648.74
54.8074     6892.64
55.2157     6806.69
55.6239     6622.83
56.0322     6772.50
56.4404     6779.41
56.8486     6791.13
57.2569     6466.64
57.6651     6707.93
58.0734     6594.52
58.4816     6542.53
58.8898     6803.89
59.2981     6681.29
59.7063     6395.29
60.1146     6809.79
60.5228     6718.66
60.9310     6652.58
61.3393     6778.00
61.7475     6790.49
62.1558     6441.77
62.5640     6769.12
62.9722     6803.75
63.3805     6596.44
63.7887     6740.38
64.1970     6952.86
64.6052     6783.50
65.0134     6492.64
65.4217     6606.04
65.8299     6850.68
66.2382     6600.59
66.6464     6581.31
67.0546     6703.56
67.4629     6818.84
67.8711     6572.18
68.2794     6647.58
68.6876     6720.61
69.0958     6576.86
69.5041     6506.84
69.9123     6422.15
70.3206     6647.06
70.7288     6524.83
71.1370     6609.68
71.5453     6526.53
71.9535     6718.74
72.3618     6551.86
72.7700     6561.59
73.1782     6452.29
73.5865     6557.91
73.9947     6394.53
74.4030     6533.50
74.8112     6516.99
75.2194     6625.33
75.6277     6403.07
76.0359     6386.16
76.4442     6431.61
76.8524     6508.78
77.2606     6587.74
77.6689     6443.28
78.0771     6468.80
78.4854     6296.84
78.8936     6360.23
79.3018     6123.20
79.7101     6342.93
80.1183     6405.18
80.5266     6620.51
80.9348     6981.88
81.3430     6825.98
81.7513     6915.38
82.1595     6608.09
82.5678     6357.66
82.9760     6255.44
83.3842     6213.76
83.7925     6428.38
84.2007     6391.21
84.6090     6341.22
85.0172     6318.36
85.4254     6314.78
85.8337     6309.61
86.2419     6243.79
86.6502     6340.92
87.0584     6208.38
87.4666     6308.48
87.8749     6298.98
88.2831     6141.69
88.6914     6128.77
89.0996     6280.45
89.5078     6032.67
89.9161     6171.97
90.3243     6104.11
90.7326     6235.44
91.1408     6029.17
91.5490     6189.18
91.9573     6377.74
92.3655     6135.46
92.7738     6166.34
93.1820     6108.21
93.5902     6101.08
93.9985     6109.82
94.4067     6124.71
94.8150     6078.11
95.2232     5963.15
95.6314     6023.73
96.0397     5849.65
96.4479     6034.48
96.8562     6094.03
97.2644     6072.73
97.6726     6223.65
98.0809     6127.00
98.4891     6221.24
98.8974     6075.44
99.3056     5961.12
99.7138     6000.73
100.1221     5935.20
100.5303     5912.38
100.9386     5902.97
101.3468     5772.49
101.7550     6018.76
102.1633     5879.50
102.5715     5880.04
102.9798     5837.25
103.3880     5867.30
103.7962     5872.90
104.2045     5861.69
104.6127     5955.36
105.0210     5777.77
105.4292     5753.70
105.8374     5754.14
106.2457     5771.08
106.6539     5730.69
107.0622     5874.96
107.4704     5887.74
107.8786     5918.33
108.2869     5675.25
108.6951     5814.20
109.1034     5673.73
109.5116     5497.44
109.9198     5741.39
110.3281     5594.71
110.7363     5534.20
111.1446     5773.49
111.5528     5739.89
111.9610     5817.15
112.3693     5765.41
112.7775     5854.80
113.1858     5805.35
113.5940     5849.23
114.0022     6285.82
114.4105     7333.51
114.8187    11020.14
115.2270     1099.11
115.6352       66.41
116.0434       56.63
116.4517       41.90
116.5975       44.95

File: zro2.txt
 0.1033       28.01
 0.5115       28.39
 0.9198       28.55
 1.3280       21.43
 1.7362       33.19
 2.1445       43.77
 2.5527       61.07
 2.9610       46.67
 3.3692       35.00
 3.7774       47.38
 4.1857       32.75
 4.5939       29.43
 5.0022       37.35
 5.4104       45.77
 5.8186       43.74
 6.2269       47.11
 6.6351       63.29
 7.0434       82.56
 7.4516      157.44
 7.8598     2647.35
 8.2681     5251.74
 8.6763     5280.05
 9.0846     5299.21
 9.4928     5041.14
 9.9010     4923.91
10.3093     5018.85
10.7175     5124.04
11.1258     5106.28
11.5340     5079.81
11.9422     5201.29
12.3505     5379.97
12.7587     5247.21
13.1670     5219.08
13.5752     5317.11
13.9834     5253.27
14.3917     5378.99
14.7999     5371.75
15.2082     5256.19
15.6164     5380.74
16.0246     5263.80
16.4329     5479.75
16.8411     5302.51
17.2494     5398.40
17.6576     5409.60
18.0658     5568.88
18.4741     5413.12
18.8823     5472.18
19.2906     5403.05
19.6988     5478.45
20.1070     5482.92
20.5153     5528.26
20.9235     5492.55
21.3318     5567.86
21.7400     5463.11
22.1482     5578.15
22.5565     5492.03
22.9647     5569.62
23.3730     5506.87
23.7812     5647.88
24.1894     5567.53
24.5977     5534.45
25.0059     5560.19
25.4142     5536.90
25.8224     5551.39
26.2306     5632.56
26.6389     5601.06
27.0471     5701.85
27.4554     5865.36
27.8636     5776.53
28.2718     5643.46
28.6801     5849.14
29.0883     6006.53
29.4966     6312.36
29.9048     6781.33
30.3130     6476.99
30.7213     6148.15
31.1295     5928.67
31.5378     5740.13
31.9460     5715.32
32.3542     5680.98
32.7625     5826.42
33.1707     5736.98
33.5790     5590.32
33.9872     5721.56
34.3954     5842.56
34.8037     5983.95
35.2119     5832.85
35.6202     5832.50
36.0284     5789.91
36.4366     5890.01
36.8449     5675.24
37.2531     5732.66
37.6614     5736.24
38.0696     5738.96
38.4778     5775.29
38.8861     5755.51
39.2943     5700.24
39.7026     5886.70
40.1108     5663.13
40.5190     5831.06
40.9273     5806.15
41.3355     5773.62
41.7438     5713.19
42.1520     5834.52
42.5602     5745.64
42.9685     5874.26
43.3767     6374.86
43.7850     7140.78
44.1932     7519.48
44.6014     6855.30
45.0097     6096.04
45.4179     5773.85
45.8262     5723.46
46.2344     5930.19
46.6426     5909.83
47.0509     5804.09
47.4591     5914.37
47.8674     5809.59
48.2756     5882.09
48.6838     6002.26
49.0921     6018.33
49.5003     6124.00
49.9086     6265.63
50.3168     6350.75
50.7250     6197.22
51.1333     6142.05
51.5415     5958.24
51.9498     5950.87
52.3580     5855.65
52.7662     5970.01
53.1745     5915.61
53.5827     5998.58
53.9910     5806.02
54.3992     5986.85
54.8074     5863.41
55.2157     5963.26
55.6239     5786.89
56.0322     5900.33
56.4404     5876.43
56.8486     5828.31
57.2569     5687.14
57.6651     5874.08
58.0734     5969.74
58.4816     5879.42
58.8898     6046.67
59.2981     6067.69
59.7063     5797.74
60.1146     6130.99
60.5228     6017.58
60.9310     5870.98
61.3393     6118.16
61.7475     6007.72
62.1558     5740.77
62.5640     5746.40
62.9722     5905.20
63.3805     5784.79
63.7887     5951.30
64.1970     5990.66
64.6052     6036.12
65.0134     5687.50
65.4217     5762.02
65.8299     5810.83
66.2382     5667.49
66.6464     5762.88
67.0546     5737.34
67.4629     5759.51
67.8711     5883.82
68.2794     5812.58
68.6876     5756.95
69.0958     5689.76
69.5041     5591.55
69.9123     5626.91
70.3206     5699.99
70.7288     5665.89
71.1370     5836.33
71.5453     5680.61
71.9535     5657.07
72.3618     5813.24
72.7700     5809.49
73.1782     5758.16
73.5865     5659.70
73.9947     5591.37
74.4030     5759.15
74.8112     5705.86
75.2194     5842.28
75.6277     5664.45
76.0359     5625.36
76.4442     5614.11
76.8524     5530.55
77.2606     5646.00
77.6689     5713.73
78.0771     5644.85
78.4854     5605.50
78.8936     5494.25
79.3018     5464.63
79.7101     5558.97
80.1183     5605.78
80.5266     5826.06
80.9348     6158.54
81.3430     6224.17
81.7513     6132.78
82.1595     5844.21
82.5678     5707.43
82.9760     5715.93
83.3842     5528.94
83.7925     5591.54
84.2007     5704.04
84.6090     5512.90
85.0172     5650.03
85.4254     5594.98
85.8337     5684.39
86.2419     5548.80
86.6502     5480.12
87.0584     5519.64
87.4666     5415.04
87.8749     5594.33
88.2831     5431.31
88.6914     5299.87
89.0996     5471.83
89.5078     5295.81
89.9161     5374.05
90.3243     5499.30
90.7326     5484.80
91.1408     5494.21
91.5490     5396.62
91.9573     5593.58
92.3655     5332.66
92.7738     5325.89
93.1820     5379.72
93.5902     5368.56
93.9985     5440.29
94.4067     5275.24
94.8150     5406.59
95.2232     5317.22
95.6314     5397.58
96.0397     5179.88
96.4479     5269.08
96.8562     5416.49
97.2644     5383.52
97.6726     5398.28
98.0809     5377.00
98.4891     5401.55
98.8974     5233.50
99.3056     5236.82
99.7138     5209.72
100.1221     5264.98
100.5303     5179.61
100.9386     5164.51
101.3468     5158.11
101.7550     5211.60
102.1633     5226.15
102.5715     5313.95
102.9798     5231.71
103.3880     5078.64
103.7962     5139.96
104.2045     5248.56
104.6127     5269.97
105.0210     5187.00
105.4292     5040.27
105.8374     5110.91
106.2457     5113.15
106.6539     5125.81
107.0622     5224.18
107.4704     5143.85
107.8786     5076.88
108.2869     4993.83
108.6951     5227.00
109.1034     4964.39
109.5116     5031.17
109.9198     5065.76
110.3281     4891.89
110.7363     4891.35
111.1446     5055.81
111.5528     5169.22
111.9610     5084.51
112.3693     5123.47
112.7775     5184.77
113.1858     5077.07
113.5940     5280.88
114.0022     5457.85
114.4105     6485.27
114.8187     9514.91
115.2270     1079.04
115.6352       47.15
116.0434       37.37
116.4517       31.53
116.5975       37.03